{
  "resourceType": "CarePlan",
  "id": "f202",
  "text": {
    "status": "generated",
    "div": "\u003cdiv xmlns\u003d\"http://www.w3.org/1999/xhtml\"\u003e\u003cp\u003e\u003cb\u003eGenerated Narrative\u003c/b\u003e\u003c/p\u003e\u003cdiv\u003e\u003cp\u003eResource \u0026quot;f202\u0026quot; \u003c/p\u003e\u003c/div\u003e\u003cp\u003e\u003cb\u003estatus\u003c/b\u003e: active\u003c/p\u003e\u003cp\u003e\u003cb\u003eintent\u003c/b\u003e: plan\u003c/p\u003e\u003cp\u003e\u003cb\u003esubject\u003c/b\u003e: \u003ca\u003ePatient/f201: Roel\u003c/a\u003e \u0026quot;Roel\u0026quot;\u003c/p\u003e\u003cp\u003e\u003cb\u003ecareTeam\u003c/b\u003e: \u003ca\u003e \u003c/a\u003e\u003c/p\u003e\u003cblockquote\u003e\u003cdiv\u003e\u003cp\u003eResource \u0026quot;careteam\u0026quot; \u003c/p\u003e\u003c/div\u003e\u003ch3\u003eParticipants\u003c/h3\u003e\u003ctable\u003e\u003ctr\u003e\u003ctd\u003e-\u003c/td\u003e\u003ctd\u003e\u003cb\u003eRole\u003c/b\u003e\u003c/td\u003e\u003ctd\u003e\u003cb\u003eMember\u003c/b\u003e\u003c/td\u003e\u003c/tr\u003e\u003ctr\u003e\u003ctd\u003e*\u003c/td\u003e\u003ctd\u003eTreated with \u003cspan\u003e (\u003ca\u003eSNOMED CT\u003c/a\u003e#28995006)\u003c/span\u003e\u003c/td\u003e\u003ctd\u003e\u003ca\u003ePractitioner/f201: Dokter Bronsig\u003c/a\u003e \u0026quot;Dokter Bronsig\u0026quot;\u003c/td\u003e\u003c/tr\u003e\u003c/table\u003e\u003c/blockquote\u003e\u003cp\u003e\u003cb\u003eaddresses\u003c/b\u003e: \u003ca\u003eCondition/f202: Roel\u0027s head-neck tumor\u003c/a\u003e\u003c/p\u003e\u003cp\u003e\u003cb\u003egoal\u003c/b\u003e: \u003ca\u003e \u003c/a\u003e\u003c/p\u003e\u003cblockquote\u003e\u003cdiv\u003e\u003cp\u003eResource \u0026quot;goal\u0026quot; \u003c/p\u003e\u003c/div\u003e\u003cp\u003e\u003cb\u003elifecycleStatus\u003c/b\u003e: active\u003c/p\u003e\u003cp\u003e\u003cb\u003edescription\u003c/b\u003e: Elimination of the spenoid bone tumor \u003cspan\u003e ()\u003c/span\u003e\u003c/p\u003e\u003cp\u003e\u003cb\u003esubject\u003c/b\u003e: \u003ca\u003ePatient/f201: Roel\u003c/a\u003e \u0026quot;Roel\u0026quot;\u003c/p\u003e\u003c/blockquote\u003e\u003cblockquote\u003e\u003cp\u003e\u003cb\u003eactivity\u003c/b\u003e\u003c/p\u003e\u003cp\u003e\u003cb\u003eoutcomeReference\u003c/b\u003e: \u003ca\u003eProcedure/f201: Roel\u0027s Chemotherapy\u003c/a\u003e\u003c/p\u003e\u003ch3\u003eDetails\u003c/h3\u003e\u003ctable\u003e\u003ctr\u003e\u003ctd\u003e-\u003c/td\u003e\u003ctd\u003e\u003cb\u003eKind\u003c/b\u003e\u003c/td\u003e\u003ctd\u003e\u003cb\u003eCode\u003c/b\u003e\u003c/td\u003e\u003ctd\u003e\u003cb\u003eStatus\u003c/b\u003e\u003c/td\u003e\u003ctd\u003e\u003cb\u003eDoNotPerform\u003c/b\u003e\u003c/td\u003e\u003ctd\u003e\u003cb\u003eProduct[x]\u003c/b\u003e\u003c/td\u003e\u003c/tr\u003e\u003ctr\u003e\u003ctd\u003e*\u003c/td\u003e\u003ctd\u003eServiceRequest\u003c/td\u003e\u003ctd\u003eChemotherapy \u003cspan\u003e (\u003ca\u003eSNOMED CT\u003c/a\u003e#367336001)\u003c/span\u003e\u003c/td\u003e\u003ctd\u003ein-progress\u003c/td\u003e\u003ctd\u003efalse\u003c/td\u003e\u003ctd\u003e\u003ca\u003e \u003c/a\u003e\u003cblockquote\u003e\u003cdiv\u003e\u003cp\u003eResource \u0026quot;tpf\u0026quot; \u003c/p\u003e\u003c/div\u003e\u003cp\u003e\u003cb\u003ecode\u003c/b\u003e: TPF \u003cspan\u003e ()\u003c/span\u003e\u003c/p\u003e\u003cblockquote\u003e\u003cp\u003e\u003cb\u003eingredient\u003c/b\u003e\u003c/p\u003e\u003cp\u003e\u003cb\u003eitem\u003c/b\u003e: \u003ca\u003e#doce\u003c/a\u003e\u003c/p\u003e\u003c/blockquote\u003e\u003cblockquote\u003e\u003cp\u003e\u003cb\u003eingredient\u003c/b\u003e\u003c/p\u003e\u003cp\u003e\u003cb\u003eitem\u003c/b\u003e: \u003ca\u003e#cisp\u003c/a\u003e\u003c/p\u003e\u003c/blockquote\u003e\u003cblockquote\u003e\u003cp\u003e\u003cb\u003eingredient\u003c/b\u003e\u003c/p\u003e\u003cp\u003e\u003cb\u003eitem\u003c/b\u003e: \u003ca\u003e#fluo\u003c/a\u003e\u003c/p\u003e\u003c/blockquote\u003e\u003c/blockquote\u003e\u003c/td\u003e\u003c/tr\u003e\u003c/table\u003e\u003c/blockquote\u003e\u003c/div\u003e"
  },
  "contained": [
    {
      "resourceType": "Medication",
      "id": "doce",
      "code": {
        "coding": [
          {
            "system": "http://snomed.info/sct",
            "code": "108806006",
            "display": "Docetaxel"
          }
        ]
      }
    },
    {
      "resourceType": "Medication",
      "id": "cisp",
      "code": {
        "coding": [
          {
            "system": "http://snomed.info/sct",
            "code": "57066004",
            "display": "Cisplatin"
          }
        ]
      }
    },
    {
      "resourceType": "Medication",
      "id": "fluo",
      "code": {
        "coding": [
          {
            "system": "http://snomed.info/sct",
            "code": "3127006",
            "display": "Fluorouracil"
          }
        ]
      }
    },
    {
      "resourceType": "Medication",
      "id": "tpf",
      "code": {
        "text": "TPF"
      },
      "ingredient": [
        {
          "itemReference": {
            "reference": "#doce"
          }
        },
        {
          "itemReference": {
            "reference": "#cisp"
          }
        },
        {
          "itemReference": {
            "reference": "#fluo"
          }
        }
      ]
    },
    {
      "resourceType": "CareTeam",
      "id": "careteam",
      "participant": [
        {
          "role": [
            {
              "coding": [
                {
                  "system": "http://snomed.info/sct",
                  "code": "28995006",
                  "display": "Treated with"
                }
              ]
            }
          ],
          "member": {
            "reference": "Practitioner/f201",
            "display": "Dokter Bronsig"
          }
        }
      ]
    },
    {
      "resourceType": "Goal",
      "id": "goal",
      "lifecycleStatus": "active",
      "description": {
        "text": "Elimination of the spenoid bone tumor"
      },
      "subject": {
        "reference": "Patient/f201",
        "display": "Roel"
      }
    }
  ],
  "status": "active",
  "intent": "plan",
  "subject": {
    "reference": "Patient/f201",
    "display": "Roel"
  },
  "careTeam": [
    {
      "reference": "#careteam"
    }
  ],
  "addresses": [
    {
      "reference": "Condition/f202",
      "display": "Roel\u0027s head-neck tumor"
    }
  ],
  "goal": [
    {
      "reference": "#goal"
    }
  ],
  "activity": [
    {
      "outcomeReference": [
        {
          "reference": "Procedure/f201",
          "display": "Roel\u0027s Chemotherapy"
        }
      ],
      "detail": {
        "kind": "ServiceRequest",
        "code": {
          "coding": [
            {
              "system": "http://snomed.info/sct",
              "code": "367336001",
              "display": "Chemotherapy"
            }
          ]
        },
        "status": "in-progress",
        "doNotPerform": false,
        "productReference": {
          "reference": "#tpf"
        }
      }
    }
  ],
  "meta": {
    "tag": [
      {
        "system": "http://terminology.hl7.org/CodeSystem/v3-ActReason",
        "code": "HTEST",
        "display": "test health data"
      }
    ]
  }
}