{"resourceType":"Bundle","id":"SampleEstablishmentInactivationBundle","meta":{"profile":["http://hl7.org/fhir/us/spl/StructureDefinition/EstablishmentInactivationBundle"]},"type":"message","timestamp":"2021-08-11T01:01:01.111+06:00","entry":[{"fullUrl":"http://example.org/MessageHeader/SampleEstablishmentInactivationMessage","resource":{"resourceType":"MessageHeader","id":"SampleEstablishmentInactivationMessage","meta":{"profile":["http://hl7.org/fhir/us/spl/StructureDefinition/EstablishmentInactivationMessage"]},"text":{"status":"generated","div":"<div xmlns=\"http://www.w3.org/1999/xhtml\"><p><b>Generated Narrative</b></p><div style=\"display: inline-block; background-color: #d9e0e7; padding: 6px; margin: 4px; border: 1px solid #8da1b4; border-radius: 5px; line-height: 60%\"><p style=\"margin-bottom: 0px\">Resource \"SampleEstablishmentInactivationMessage\" </p><p style=\"margin-bottom: 0px\">Profile: <a href=\"StructureDefinition-EstablishmentInactivationMessage.html\">EstablishmentInactivationMessage</a></p></div><p><b>event</b>: Establishment inactivation (Details: http://hl7.org/fhir/us/spl/CodeSystem/codesystem-fhirMessageTypes code 01 = 'Establishment Inactivation', stated as 'Establishment inactivation')</p><h3>Sources</h3><table class=\"grid\"><tr><td>-</td><td><b>Endpoint</b></td></tr><tr><td>*</td><td><a href=\"http://example.org/\">http://example.org/</a></td></tr></table><p><b>focus</b>: </p><ul><li><a href=\"#Organization_SampleIdentifiedEstablishmentRegistrant\">See above (Organization/SampleIdentifiedEstablishmentRegistrant)</a></li><li><a href=\"#Organization_SampleIdentifiedEstablishment\">See above (Organization/SampleIdentifiedEstablishment)</a></li></ul></div>"},"eventCoding":{"system":"http://hl7.org/fhir/us/spl/CodeSystem/codesystem-fhirMessageTypes","code":"01","display":"Establishment inactivation"},"source":{"endpoint":"http://example.org/"},"focus":[{"reference":"Organization/SampleIdentifiedEstablishmentRegistrant"},{"reference":"Organization/SampleIdentifiedEstablishment"}]}},{"fullUrl":"http://example.org/Organization/SampleIdentifiedEstablishmentRegistrant","resource":{"resourceType":"Organization","id":"SampleIdentifiedEstablishmentRegistrant","meta":{"profile":["http://hl7.org/fhir/us/spl/StructureDefinition/IdentifiedEstablishmentRegistrant"]},"text":{"status":"generated","div":"<div xmlns=\"http://www.w3.org/1999/xhtml\"><p><b>Generated Narrative</b></p><div style=\"display: inline-block; background-color: #d9e0e7; padding: 6px; margin: 4px; border: 1px solid #8da1b4; border-radius: 5px; line-height: 60%\"><p style=\"margin-bottom: 0px\">Resource \"SampleIdentifiedEstablishmentRegistrant\" </p><p style=\"margin-bottom: 0px\">Profile: <a href=\"StructureDefinition-IdentifiedEstablishmentRegistrant.html\">IdentifiedEstablishmentRegistrant</a></p></div><p><b>identifier</b>: id: 111111111</p><p><b>type</b>: An organization that registers establishment organizations. <span style=\"background: LightGoldenRodYellow; margin: 4px; border: 1px solid khaki\"> (<a href=\"CodeSystem-codesystem-organizationTypes.html\">OrganizationTypes</a>#EstablishmentRegistrant)</span></p><p><b>name</b>: REGISTRANT SERVICES INC</p></div>"},"identifier":[{"system":"urn:oid:1.3.6.1.4.1.519.1","value":"111111111"}],"type":[{"coding":[{"system":"http://hl7.org/fhir/us/spl/CodeSystem/codesystem-organizationTypes","code":"EstablishmentRegistrant"}]}],"name":"REGISTRANT SERVICES INC"}},{"fullUrl":"http://example.org/Organization/SampleIdentifiedEstablishment","resource":{"resourceType":"Organization","id":"SampleIdentifiedEstablishment","meta":{"profile":["http://hl7.org/fhir/us/spl/StructureDefinition/IdentifiedEstablishment"]},"text":{"status":"generated","div":"<div xmlns=\"http://www.w3.org/1999/xhtml\"><p><b>Generated Narrative</b></p><div style=\"display: inline-block; background-color: #d9e0e7; padding: 6px; margin: 4px; border: 1px solid #8da1b4; border-radius: 5px; line-height: 60%\"><p style=\"margin-bottom: 0px\">Resource \"SampleIdentifiedEstablishment\" </p><p style=\"margin-bottom: 0px\">Profile: <a href=\"StructureDefinition-IdentifiedEstablishment.html\">IdentifiedEstablishment</a></p></div><p><b>identifier</b>: id: 222222222</p><p><b>type</b>: An organization that provides operations in the manufacturing of a product. <span style=\"background: LightGoldenRodYellow; margin: 4px; border: 1px solid khaki\"> (<a href=\"CodeSystem-codesystem-organizationTypes.html\">OrganizationTypes</a>#Establishment)</span></p><p><b>name</b>: EXAMPLE ESTABLISHMENT INC.</p></div>"},"identifier":[{"system":"urn:oid:1.3.6.1.4.1.519.1","value":"222222222"}],"type":[{"coding":[{"system":"http://hl7.org/fhir/us/spl/CodeSystem/codesystem-organizationTypes","code":"Establishment"}]}],"name":"EXAMPLE ESTABLISHMENT INC."}}]}