<?xml version="1.0" encoding="UTF-8"?><GuidanceResponse xmlns="http://hl7.org/fhir">
  <id value="example"/>
  <!--   This example demonstrates the response to an $evaluate operation using the GuidanceResponse resource.   -->
  <meta>
    <security>
      <system value="http://terminology.hl7.org/CodeSystem/v3-ActReason"/>
      <code value="HTEST"/>
      <display value="test health data"/>
    </security>
  </meta>
  <text><status value="generated"/><div xmlns="http://www.w3.org/1999/xhtml"><p><b>Generated Narrative</b></p><div><p>Resource "example" </p></div><p><b>requestIdentifier</b>: id: guidanceRequest1</p><p><b>identifier</b>: id: guidanceResponse1</p><p><b>module</b>: <a>http://someguidelineprovider.org/radiology-appropriateness-guidelines.html</a></p><p><b>status</b>: success</p><p><b>subject</b>: <a>Patient/example</a> "Peter CHALMERS"</p><p><b>encounter</b>: <a>Encounter/example</a></p><p><b>occurrenceDateTime</b>: 2017-03-10T16:02:00Z</p><p><b>performer</b>: <a>Device/software</a></p><p><b>reasonCode</b>: Guideline Appropriate Ordering Assessment <span> ()</span></p><p><b>outputParameters</b>: <a> </a></p><blockquote><div><p>Resource "outputParameters1" </p></div><blockquote><p><b>parameter</b></p><p><b>name</b>: score</p><p><b>value</b>: 7</p></blockquote><blockquote><p><b>parameter</b></p><p><b>name</b>: item-assessed</p><p><b>value</b>: CT, head, wo iv contrast <span> (<a>Current Procedural Terminology (CPT®)</a>#70450)</span></p></blockquote><blockquote><p><b>parameter</b></p><p><b>name</b>: device</p><p><b>value</b>: <a>Device/software</a></p></blockquote><blockquote><p><b>parameter</b></p><p><b>name</b>: guideline-followed</p><p><b>value</b>: <a>http://someguidelineprovider.org/radiology-appropriateness-guidelines.html</a></p></blockquote></blockquote></div></text><contained>
    <Parameters>
      <id value="outputParameters1"/>
      <parameter>
        <name value="score"/>
        <valueDecimal value="7"/>
      </parameter>
      <parameter>
        <name value="item-assessed"/>
		<valueCodeableConcept>
		  <coding>
			<system value="http://www.ama-assn.org/go/cpt"/>
			<code value="70450"/>
			<display value="CT, head, wo iv contrast"/>
		  </coding>
		</valueCodeableConcept>
      </parameter>
      <parameter>
        <name value="device"/>
        <valueReference>
          <reference value="Device/software"/>
        </valueReference>
      </parameter>
      <parameter>
        <name value="guideline-followed"/>
        <valueUri value="http://someguidelineprovider.org/radiology-appropriateness-guidelines.html"/>
      </parameter>
    </Parameters>
  </contained>
  <requestIdentifier>
    <system value="http://example.org"/>
    <value value="guidanceRequest1"/>
  </requestIdentifier>
  <identifier>
    <system value="http://example.org"/>
    <value value="guidanceResponse1"/>
  </identifier>
  <moduleUri value="http://someguidelineprovider.org/radiology-appropriateness-guidelines.html"/>
  <status value="success"/>
  <subject>
    <reference value="Patient/example"/>
  </subject>
  <encounter>
    <reference value="Encounter/example"/>
  </encounter>
  <occurrenceDateTime value="2017-03-10T16:02:00Z"/>
  <performer>
    <reference value="Device/software"/>
  </performer>
  <reasonCode>
    <text value="Guideline Appropriate Ordering Assessment"/>
  </reasonCode>
  <outputParameters>
    <reference value="#outputParameters1"/>
  </outputParameters>
</GuidanceResponse>